#
#     DEFINES WAVELENGTH DEPENDENT COMPLEX INDEX OF REFRACTION FOR ICE.
#     ALLOWABLE WAVELENGTH RANGE EXTENDS FROM 0.045 MICRONS TO 167 MICRONS.
#
#     STEPHEN G. WARREN - 1983
#     DEPT. OF ATMOSPHERIC SCIENCES
#     UNIVERSITY OF WASHINGTON
#     SEATTLE, WA  98195
#
#     BASED ON
#
#        WARREN,S.G.,1984.
#        OPTICAL CONSTANTS OF ICE FROM THE ULTRAVIOLET TO THE MICROWAVE.
#        APPLIED OPTICS,23,1206-1225
#
#  nlambda = 
 468
#    lambda          real              im 
#   (microns)
#
  4.43000011E-02  0.83441001      0.16400000    
  4.50999998E-02  0.83675998      0.17299999    
  4.58999984E-02  0.83728999      0.18300000    
  4.67999987E-02  0.83771002      0.19499999    
  4.76999991E-02  0.83827001      0.20800000    
  4.85999994E-02  0.84038001      0.22300000    
  4.96000014E-02  0.84719002      0.23999999    
  5.05999997E-02  0.85522002      0.25000000    
  5.16999997E-02  0.86047000      0.25900000    
  5.27999997E-02  0.86247998      0.26800001    
  5.38999997E-02  0.86157000      0.27900001    
  5.51000014E-02  0.86093003      0.29699999    
  5.64000010E-02  0.86418998      0.31900001    
  5.77000007E-02  0.86916000      0.34000000    
  5.90000004E-02  0.87764001      0.36600000    
  6.04999997E-02  0.89296001      0.39199999    
  6.19999990E-02  0.91040999      0.41600001    
  6.36000037E-02  0.93089002      0.44000000    
  6.53000027E-02  0.95372999      0.46399999    
  6.70000017E-02  0.98188001      0.49200001    
  6.88999966E-02   1.0233400      0.51700002    
  7.07999989E-02   1.0673500      0.52800000    
  7.28999972E-02   1.1119699      0.53299999    
  7.37999976E-02   1.1313400      0.53399998    
  7.50999972E-02   1.1574700      0.53100002    
  7.75000006E-02   1.2004499      0.52399999    
  7.99999982E-02   1.2384000      0.50999999    
  8.26999992E-02   1.2732500      0.50000000    
  8.55000019E-02   1.3215700      0.49900001    
  8.86000022E-02   1.3895800      0.46799999    
  9.17999968E-02   1.4164400      0.38000000    
  9.30000022E-02   1.4090600      0.36000001    
  9.53999981E-02   1.4006300      0.33899999    
  9.92000028E-02   1.4016900      0.31799999    
  0.10330000       1.4093400      0.29100001    
  0.10780000       1.4022100      0.25099999    
  0.11000000       1.3924000      0.24400000    
  0.11270000       1.3842400      0.23899999    
  0.11400000       1.3807499      0.23899999    
  0.11810000       1.3818600      0.24400000    
  0.12100000       1.3963400      0.24699999    
  0.12400000       1.4091800      0.22400001    
  0.12720001       1.4025600      0.19499999    
  0.12950000       1.3801301      0.17399999    
  0.13050000       1.3630300      0.17200001    
  0.13190000       1.3414400      0.18000001    
  0.13330001       1.3237700      0.19400001    
  0.13480000       1.3060499      0.21300000    
  0.13620000       1.2905400      0.24300000    
  0.13699999       1.2889000      0.27100000    
  0.13779999       1.2893100      0.28900000    
  0.13869999       1.3019000      0.33399999    
  0.13930000       1.3202500      0.34400001    
  0.14090000       1.3630199      0.38200000    
  0.14250000       1.4187200      0.40099999    
  0.14350000       1.4583400      0.40650001    
  0.14420000       1.4902800      0.40500000    
  0.14500000       1.5212801      0.38900000    
  0.14590000       1.5537601      0.37700000    
  0.14680000       1.5778199      0.34500000    
  0.14760000       1.5963600      0.33199999    
  0.14800000       1.6065201      0.31500000    
  0.14850000       1.6117200      0.29800001    
  0.14940000       1.6191900      0.27399999    
  0.15120000       1.6252199      0.22800000    
  0.15310000       1.6340400      0.19800000    
  0.15400000       1.6368901      0.17200001    
  0.15500000       1.6383300      0.15600000    
  0.15690000       1.6372000      0.11000000    
  0.15800001       1.6323299      8.29999968E-02
  0.15889999       1.6222200      5.79999983E-02
  0.16100000       1.5826900      2.19999999E-02
  0.16249999       1.5563500      9.99999978E-03
  0.16480000       1.5245301      3.00000003E-03
  0.16689999       1.5032001      1.00000005E-03
  0.16920000       1.4849800      3.00000014E-04
  0.17129999       1.4722600      9.99999975E-05
  0.17370000       1.4599100      2.99999992E-05
  0.17569999       1.4511499      9.99999975E-06
  0.17790000       1.4427201      3.00000011E-06
  0.18020000       1.4349800      9.99999997E-07
  0.18089999       1.4328001      6.99999987E-07
  0.18210000       1.4292400      4.00000005E-07
  0.18330000       1.4260200      2.00000002E-07
  0.18430001       1.4232301      1.00000001E-07
  0.18500000       1.4214300      6.37700026E-08
  0.18600000       1.4189700      3.75000013E-08
  0.18700001       1.4166000      2.80000005E-08
  0.18799999       1.4143400      2.40000002E-08
  0.18900000       1.4121600      2.20000000E-08
  0.19000000       1.4100600      1.89999998E-08
  0.19100000       1.4080499      1.74999997E-08
  0.19300000       1.4042300      1.63999996E-08
  0.19499999       1.4006701      1.58999995E-08
  0.20999999       1.3800400      1.32500002E-08
  0.25000000       1.3508500      8.62300009E-09
  0.30000001       1.3339400      5.50399992E-09
  0.34999999       1.3249201      3.76499987E-09
  0.40000001       1.3194000      2.71000000E-09
  0.41000000       1.3185400      2.50999999E-09
  0.41999999       1.3177500      2.25999996E-09
  0.43000001       1.3170201      2.07999995E-09
  0.44000000       1.3163300      1.90999994E-09
  0.44999999       1.3156900      1.54000002E-09
  0.46000001       1.3150899      1.53000002E-09
  0.47000000       1.3145200      1.55000002E-09
  0.47999999       1.3139900      1.64000002E-09
  0.49000001       1.3134900      1.78000004E-09
  0.50000000       1.3130200      1.90999994E-09
  0.50999999       1.3125700      2.13999996E-09
  0.51999998       1.3121500      2.25999996E-09
  0.52999997       1.3117501      2.53999999E-09
  0.54000002       1.3113600      2.93000002E-09
  0.55000001       1.3109900      3.11000004E-09
  0.56000000       1.3106400      3.29000005E-09
  0.56999999       1.3103100      3.52000007E-09
  0.57999998       1.3099900      4.03999989E-09
  0.58999997       1.3096800      4.87999996E-09
  0.60000002       1.3093801      5.73000003E-09
  0.61000001       1.3090900      6.89000013E-09
  0.62000000       1.3088200      8.57999982E-09
  0.63000000       1.3085500      1.04000000E-08
  0.63999999       1.3082900      1.22000001E-08
  0.64999998       1.3080400      1.43000003E-08
  0.66000003       1.3078001      1.65999996E-08
  0.67000002       1.3075600      1.88999998E-08
  0.68000001       1.3073300      2.09000000E-08
  0.69000000       1.3071001      2.40000002E-08
  0.69999999       1.3068800      2.90000006E-08
  0.70999998       1.3066700      3.43999993E-08
  0.72000003       1.3064600      4.03000016E-08
  0.73000002       1.3062500      4.30000000E-08
  0.74000001       1.3060499      4.92000005E-08
  0.75000000       1.3058500      5.86999995E-08
  0.75999999       1.3056600      7.07999988E-08
  0.76999998       1.3054700      8.58000035E-08
  0.77999997       1.3052800      1.02000001E-07
  0.79000002       1.3050900      1.18000003E-07
  0.80000001       1.3049099      1.34000004E-07
  0.81000000       1.3047301      1.39999997E-07
  0.81999999       1.3045501      1.42999994E-07
  0.82999998       1.3043700      1.45000001E-07
  0.83999997       1.3041900      1.50999995E-07
  0.85000002       1.3040200      1.82999997E-07
  0.86000001       1.3038501      2.15000000E-07
  0.87000000       1.3036700      2.65000011E-07
  0.88000000       1.3035001      3.35000010E-07
  0.88999999       1.3033299      3.92000004E-07
  0.89999998       1.3031600      4.19999992E-07
  0.91000003       1.3029900      4.43999994E-07
  0.92000002       1.3028300      4.73999989E-07
  0.93000001       1.3026600      5.10999996E-07
  0.94000000       1.3024900      5.53000007E-07
  0.94999999       1.3023200      6.02000000E-07
  0.95999998       1.3021600      7.54999974E-07
  0.97000003       1.3019900      9.25999984E-07
  0.98000002       1.3018200      1.11999998E-06
  0.99000001       1.3016599      1.33000003E-06
   1.0000000       1.3014899      1.62000003E-06
   1.0100000       1.3013200      1.99999999E-06
   1.0200000       1.3011600      2.25000008E-06
   1.0300000       1.3009900      2.32999992E-06
   1.0400000       1.3008200      2.32999992E-06
   1.0500000       1.3006500      2.17000002E-06
   1.0599999       1.3004800      1.95999996E-06
   1.0700001       1.3003100      1.80999996E-06
   1.0800000       1.3001400      1.74000002E-06
   1.0900000       1.2999700      1.73000001E-06
   1.1000000       1.2997900      1.69999998E-06
   1.1100000       1.2996200      1.76000003E-06
   1.1200000       1.2994500      1.81999997E-06
   1.1300000       1.2992700      2.04000003E-06
   1.1400000       1.2990900      2.25000008E-06
   1.1500000       1.2989100      2.29000011E-06
   1.1600000       1.2987300      3.03999991E-06
   1.1700000       1.2985500      3.83999986E-06
   1.1799999       1.2983700      4.77000003E-06
   1.1900001       1.2981800      5.76000002E-06
   1.2000000       1.2980000      6.70999998E-06
   1.2100000       1.2978100      8.66000028E-06
   1.2200000       1.2976201      1.02000004E-05
   1.2300000       1.2974300      1.12999996E-05
   1.2400000       1.2972400      1.22000001E-05
   1.2500000       1.2970500      1.29000000E-05
   1.2600000       1.2968600      1.31999996E-05
   1.2700000       1.2966599      1.35000000E-05
   1.2800000       1.2964600      1.33000003E-05
   1.2900000       1.2962600      1.31999996E-05
   1.3000000       1.2960500      1.31999996E-05
   1.3099999       1.2958400      1.30999997E-05
   1.3200001       1.2956300      1.31999996E-05
   1.3300000       1.2954201      1.31999996E-05
   1.3400000       1.2952100      1.34000002E-05
   1.3500000       1.2949899      1.39000003E-05
   1.3600000       1.2947600      1.41999999E-05
   1.3700000       1.2945300      1.47999999E-05
   1.3800000       1.2943000      1.58000003E-05
   1.3900000       1.2940600      1.73999997E-05
   1.4000000       1.2938100      1.97999998E-05
   1.4100000       1.2935500      2.49999994E-05
   1.4200000       1.2932700      5.40000001E-05
   1.4299999       1.2929900      1.03999999E-04
   1.4400001       1.2927200      2.03000003E-04
   1.4490000       1.2925200      2.70799996E-04
   1.4600000       1.2922800      3.51099996E-04
   1.4710000       1.2920500      4.29900014E-04
   1.4809999       1.2918600      5.18099987E-04
   1.4930000       1.2916700      5.85499976E-04
   1.5039999       1.2915000      5.89900010E-04
   1.5150000       1.2913001      5.63499983E-04
   1.5270000       1.2910600      5.47999982E-04
   1.5380000       1.2908300      5.26599993E-04
   1.5630000       1.2902499      4.39399999E-04
   1.5870000       1.2896200      3.70099995E-04
   1.6130000       1.2889100      3.37200006E-04
   1.6500000       1.2878400      2.41000002E-04
   1.6799999       1.2868900      1.88999998E-04
   1.7000000       1.2862300      1.65999998E-04
   1.7300000       1.2852100      1.44999998E-04
   1.7600000       1.2841300      1.28000000E-04
   1.8000000       1.2826101      1.02999998E-04
   1.8300000       1.2813700      8.60000000E-05
   1.8400000       1.2809300      8.22000002E-05
   1.8500000       1.2804700      8.03000003E-05
   1.8550000       1.2802200      8.49999997E-05
   1.8600000       1.2799799      9.89999971E-05
   1.8700000       1.2794800      1.50000007E-04
   1.8900000       1.2784899      2.95000005E-04
   1.9050000       1.2777400      4.68699989E-04
   1.9230000       1.2769099      7.61499978E-04
   1.9420000       1.2761000      1.01000001E-03
   1.9610000       1.2753500      1.31299999E-03
   1.9800000       1.2747101      1.53899996E-03
   2.0000000       1.2740400      1.58799998E-03
   2.0200000       1.2732900      1.53999997E-03
   2.0409999       1.2724000      1.41200004E-03
   2.0620000       1.2713900      1.24400004E-03
   2.0829999       1.2702900      1.06799998E-03
   2.1050000       1.2690099      8.41400004E-04
   2.1300001       1.2673600      5.64999995E-04
   2.1500001       1.2659100      4.32000001E-04
   2.1700001       1.2644100      3.49999988E-04
   2.1900001       1.2628400      2.87000003E-04
   2.2200000       1.2603600      2.20999995E-04
   2.2400000       1.2586000      2.03000003E-04
   2.2449999       1.2581500      2.01000003E-04
   2.2500000       1.2576801      2.03000003E-04
   2.2600000       1.2567500      2.14000000E-04
   2.2700000       1.2557900      2.32000006E-04
   2.2900000       1.2538300      2.88999989E-04
   2.3099999       1.2517900      3.80999991E-04
   2.3299999       1.2496700      4.61999996E-04
   2.3499999       1.2474500      5.47999982E-04
   2.3699999       1.2451200      6.17999991E-04
   2.3900001       1.2426600      6.79999997E-04
   2.4100001       1.2400399      7.30000029E-04
   2.4300001       1.2372500      7.82000017E-04
   2.4600000       1.2327000      8.47999996E-04
   2.5000000       1.2258300      9.25000000E-04
   2.5200000       1.2219800      9.20000020E-04
   2.5500000       1.2154800      8.91999982E-04
   2.5650001       1.2118400      8.69999989E-04
   2.5799999       1.2079000      8.90000025E-04
   2.5899999       1.2050700      9.29999980E-04
   2.5999999       1.2020900      1.01000001E-03
   2.6199999       1.1956600      1.35000004E-03
   2.6750000       1.1741101      3.41999996E-03
   2.7249999       1.1473401      7.91999977E-03
   2.7780001       1.1076601      1.99999996E-02
   2.8169999       1.0673900      3.79999988E-02
   2.8329999       1.0476201      5.20000011E-02
   2.8490000       1.0265000      6.80000037E-02
   2.8650000       1.0035700      9.22999978E-02
   2.8820000      0.98197001      0.12700000    
   2.8989999      0.96503001      0.16900000    
   2.9150000      0.95962000      0.22100000    
   2.9330001      0.97268999      0.27599999    
   2.9500000      0.99172002      0.31200001    
   2.9670000       1.0066800      0.34700000    
   2.9849999       1.0218600      0.38800001    
   3.0030000       1.0427001      0.43799999    
   3.0209999       1.0759701      0.49300000    
   3.0400000       1.1295400      0.55400002    
   3.0580001       1.2126700      0.61199999    
   3.0769999       1.3250901      0.62500000    
   3.0960000       1.4259900      0.59299999    
   3.1150000       1.4965600      0.53899997    
   3.1350000       1.5509501      0.49100000    
   3.1550000       1.5998800      0.43799999    
   3.1750000       1.6363100      0.37200001    
   3.1949999       1.6502399      0.30000001    
   3.2149999       1.6427799      0.23800001    
   3.2360001       1.6269100      0.19300000    
   3.2570000       1.6128401      0.15800001    
   3.2790000       1.5924500      0.12100000    
   3.3000000       1.5732900      0.10300000    
   3.3220000       1.5577000      8.35999995E-02
   3.3450000       1.5412900      6.67999983E-02
   3.3670001       1.5265400      5.40000014E-02
   3.3900001       1.5113900      4.21999991E-02
   3.4130001       1.4972500      3.42000015E-02
   3.4360001       1.4845300      2.74000000E-02
   3.4600000       1.4720900      2.19999999E-02
   3.4840000       1.4612499      1.86000001E-02
   3.5090001       1.4513201      1.52000003E-02
   3.5339999       1.4421500      1.26000000E-02
   3.5590000       1.4336600      1.05999997E-02
   3.6240001       1.4155300      8.01999960E-03
   3.7320001       1.3941700      6.85000001E-03
   3.7750001       1.3873200      6.59999996E-03
   3.8469999       1.3773500      6.95999991E-03
   3.9690001       1.3644800      9.15999990E-03
   4.0990000       1.3541400      1.10999998E-02
   4.2389998       1.3445600      1.44999996E-02
   4.3480000       1.3388200      1.99999996E-02
   4.3870001       1.3380700      2.30000000E-02
   4.4439998       1.3384700      2.60000005E-02
   4.5050001       1.3405300      2.89999992E-02
   4.5469999       1.3428700      2.93000005E-02
   4.5599999       1.3441800      2.99999993E-02
   4.5799999       1.3463399      2.85000000E-02
   4.7189999       1.3442200      1.73000004E-02
   4.9039998       1.3345300      1.29000004E-02
   5.0000000       1.3289700      1.20000001E-02
   5.0999999       1.3233300      1.25000002E-02
   5.1999998       1.3180000      1.33999996E-02
   5.2630000       1.3143200      1.40000004E-02
   5.4000001       1.3062299      1.75000001E-02
   5.5560002       1.2972200      2.40000002E-02
   5.7140002       1.2889800      3.50000001E-02
   5.7470002       1.2873000      3.79999988E-02
   5.7800002       1.2860301      4.19999994E-02
   5.8140001       1.2850900      4.60000001E-02
   5.8480000       1.2853500      5.20000011E-02
   5.8820000       1.2881300      5.70000000E-02
   6.0609999       1.3015600      6.89999983E-02
   6.1350002       1.3090100      7.00000003E-02
   6.2500000       1.3171999      6.70000017E-02
   6.2890000       1.3189300      6.49999976E-02
   6.3290000       1.3203900      6.40000030E-02
   6.3690000       1.3220100      6.19999990E-02
   6.4099998       1.3223900      5.90000004E-02
   6.4520001       1.3214900      5.70000000E-02
   6.4940000       1.3203599      5.60000017E-02
   6.5790000       1.3181400      5.49999997E-02
   6.6669998       1.3170500      5.70000000E-02
   6.7570000       1.3180701      5.79999983E-02
   6.8969998       1.3195300      5.70000000E-02
   7.0419998       1.3193300      5.49999997E-02
   7.1430001       1.3189600      5.49999997E-02
   7.2459998       1.3190900      5.40000014E-02
   7.3530002       1.3179600      5.20000011E-02
   7.4629998       1.3163100      5.20000011E-02
   7.5760002       1.3154200      5.20000011E-02
   7.6919999       1.3154000      5.20000011E-02
   7.8119998       1.3155200      5.00000007E-02
   7.9369998       1.3145500      4.69999984E-02
   8.0649996       1.3119299      4.30000015E-02
   8.1969995       1.3067700      3.90000008E-02
   8.3330002       1.2993400      3.70000005E-02
   8.4750004       1.2925299      3.90000008E-02
   8.6960001       1.2838900      3.99999991E-02
   8.9289999       1.2740099      4.19999994E-02
   9.0909996       1.2672400      4.39999998E-02
   9.2589998       1.2599000      4.50000018E-02
   9.5240002       1.2451000      4.60000001E-02
   9.8039999       1.2224100      4.69999984E-02
   10.000000       1.1991301      5.09999990E-02
   10.200000       1.1715000      6.49999976E-02
   10.310000       1.1552800      7.50000030E-02
   10.420000       1.1370000      8.79999995E-02
   10.530000       1.1180800      0.10800000    
   10.640000       1.1013401      0.13400000    
   10.750000       1.0908300      0.16800000    
   10.870000       1.0873400      0.20400000    
   11.000000       1.0925400      0.24800000    
   11.110000       1.1065400      0.28000000    
   11.360000       1.1477900      0.34099999    
   11.630000       1.2020200      0.37900001    
   11.900000       1.2582500      0.40900001    
   12.200000       1.3230500      0.42199999    
   12.500000       1.3857400      0.42199999    
   12.820000       1.4447800      0.40300000    
   12.990000       1.4717000      0.38900000    
   13.160000       1.4961900      0.37400001    
   13.330000       1.5165200      0.35400000    
   13.510000       1.5332800      0.33500001    
   13.700000       1.5490000      0.31500000    
   13.890000       1.5627600      0.29400000    
   14.080000       1.5731699      0.27100000    
   14.290000       1.5802799      0.24600001    
   14.710000       1.5791800      0.19800000    
   15.150000       1.5667200      0.16400000    
   15.380000       1.5586900      0.15200000    
   15.630000       1.5508100      0.14200000    
   16.129999       1.5380700      0.12800001    
   16.389999       1.5329601      0.12500000    
   16.670000       1.5322000      0.12300000    
   16.950001       1.5334001      0.11600000    
   17.240000       1.5328900      0.10700000    
   18.180000       1.5170500      7.90000036E-02
   18.870001       1.5009700      7.19999969E-02
   19.230000       1.4968100      7.59999976E-02
   19.610001       1.4992800      7.50000030E-02
   20.000000       1.5015301      6.70000017E-02
   20.410000       1.4985600      5.49999997E-02
   20.830000       1.4905300      4.50000018E-02
   22.219999       1.4607000      2.89999992E-02
   22.600000       1.4518200      2.74999999E-02
   23.049999       1.4422300      2.70000007E-02
   23.600000       1.4315799      2.73000002E-02
   24.600000       1.4138499      2.88999993E-02
   25.000000       1.4067600      2.99999993E-02
   26.000000       1.3895500      3.40000018E-02
   28.570000       1.3489400      5.29999994E-02
   31.000000       1.3103900      7.54999965E-02
   33.330002       1.2642000      0.10600000    
   34.480000       1.2365600      0.13500001    
   35.639999       1.2166300      0.17610000    
   37.000000       1.2023300      0.22290000    
   38.240002       1.1964000      0.27460000    
   39.599998       1.1996900      0.32800001    
   41.139999       1.2086000      0.39060000    
   42.759998       1.2217300      0.46419999    
   43.580002       1.2416600      0.52469999    
   44.580002       1.2817500      0.57309997    
   45.500000       1.3278400      0.63620001    
   46.150002       1.3865700      0.68390000    
   46.709999       1.4648600      0.70910001    
   47.360001       1.5532300      0.67900002    
   48.000000       1.6037900      0.62500000    
   48.779999       1.6187700      0.56540000    
   50.029999       1.6296300      0.54329997    
   51.279999       1.6571200      0.52920002    
   52.750000       1.6981000      0.50700003    
   53.500000       1.7206500      0.48830000    
   54.240002       1.7486500      0.47070000    
   55.000000       1.7673600      0.42030001    
   55.740002       1.7647600      0.37709999    
   56.400002       1.7501100      0.33759999    
   57.000000       1.7232701      0.30559999    
   57.459999       1.6849000      0.28349999    
   58.400002       1.6239800      0.31700000    
   59.290001       1.5959600      0.35170001    
   60.000000       1.5851400      0.39019999    
   61.000000       1.5991700      0.45089999    
   61.250000       1.6140500      0.46709999    
   62.500000       1.6662500      0.47790000    
   63.779999       1.7066300      0.48899999    
   64.669998       1.7371300      0.48989999    
   65.580002       1.7686000      0.48730001    
   66.550003       1.8034300      0.47659999    
   67.599998       1.8329600      0.45080000    
   69.000000       1.8568200      0.41929999    
   70.529999       1.8741100      0.38800001    
   73.000000       1.8911000      0.34330001    
   75.000000       1.8991801      0.31180000    
   76.290001       1.9043200      0.29350001    
   80.000000       1.9032900      0.23500000    
   82.970001       1.8874400      0.19810000    
   85.000000       1.8749900      0.18650000    
   86.800003       1.8670200      0.17710000    
   90.800003       1.8536100      0.16200000    
   95.169998       1.8425000      0.14900000    
   100.00000       1.8322500      0.13900000    
   120.00000       1.8191400      0.12000000    
   150.00000       1.8226800      9.61999968E-02
   167.00000       1.8296100      8.29999968E-02
